Folder: dashboard_maxcoat/data/gamry

File: maxcoat_ss_coating_#01_EIS_1.1_25A_1,25A_EIS_22-07-30_1250_001.txt
LabVIEW Measurement
Writer_Version	2
Reader_Version	2
Separator	Tab
Decimal_Separator	,
Multi_Headings	Yes
X_Columns	No
Time_Pref	Absolute
Operator	Versuchsstand
Date	2022/07/30
Time	12:50:44,4090776443481445313
***End_of_Header***

Channels	7
Samples	114	114	114	114	114	114	114
Date	2022/07/30	2022/07/30	2022/07/30	2022/07/30	2022/07/30	2022/07/30	2022/07/30
Time	12:50:44,4090776443481445313	12:50:44,4090776443481445313	12:50:44,4090776443481445313	12:50:44,4090776443481445313	12:50:44,4090776443481445313	12:50:44,4090776443481445313	12:50:44,4090776443481445313
X_Dimension	Time	Time	Time	Time	Time	Time	Time
X0	0,0000000000000000E+0	0,0000000000000000E+0	0,0000000000000000E+0	0,0000000000000000E+0	0,0000000000000000E+0	0,0000000000000000E+0	0,0000000000000000E+0
Delta_X	1,000000	1,000000	1,000000	1,000000	1,000000	1,000000	1,000000
***End_of_Header***
X_Value	number [-]	freq [Hz]	freq meas [Hz]	real [ohm]	imag [ohm]	impedance [ohm]	phase [deg]	Comment
	1,000000	50000,050000	50097,656250	0,006793	0,001196	0,006897	9,989376
	2,000000	44562,591469	44589,843750	0,006779	0,001033	0,006857	8,667318
	3,000000	39716,451453	39785,156250	0,006768	0,000872	0,006824	7,338141
	4,000000	35397,324616	35449,218750	0,006751	0,000718	0,006789	6,069246
	5,000000	31547,898772	31582,031250	0,006742	0,000542	0,006764	4,600193
	6,000000	28117,094377	28183,593750	0,006770	0,000368	0,006780	3,114638
	7,000000	25059,386741	25136,718750	0,006831	0,000197	0,006834	1,655893
	8,000000	22334,201942	22441,406250	0,006915	0,000103	0,006916	0,852948
	9,000000	19905,378433	19980,468750	0,006980	2,459359E-5	0,006980	0,201887
	10,000000	17740,687202	17753,906250	0,007033	-4,762381E-5	0,007033	-0,387973
	11,000000	15811,404112	15878,906250	0,007092	-9,783055E-5	0,007092	-0,790352
	12,000000	14091,928748	14121,093750	0,007138	-0,000143	0,007140	-1,146240
	13,000000	12559,444717	12597,656250	0,007176	-0,000188	0,007178	-1,500620
	14,000000	11193,616886	11168,981445	0,007219	-0,000222	0,007222	-1,762518
	15,000000	9976,321551	10019,531250	0,007252	-0,000255	0,007257	-2,012494
	16,000000	8891,405942	8854,166992	0,007286	-0,000294	0,007292	-2,311477
	17,000000	7924,473887	7928,240723	0,007322	-0,000326	0,007329	-2,547577
	18,000000	7062,694786	7089,843750	0,007355	-0,000356	0,007364	-2,773768
	19,000000	6294,633354	6307,870605	0,007391	-0,000388	0,007401	-3,003365
	20,000000	5610,097882	5613,425781	0,007426	-0,000420	0,007438	-3,238802
	21,000000	5000,005000	4973,323242	0,007466	-0,000450	0,007479	-3,450382
	22,000000	4456,259147	4456,018555	0,007500	-0,000479	0,007515	-3,653936
	23,000000	3971,645145	3993,055664	0,007536	-0,000508	0,007553	-3,855078
	24,000000	3539,732462	3530,092529	0,007577	-0,000540	0,007597	-4,077020
	25,000000	3154,789877	3144,054932	0,007617	-0,000571	0,007638	-4,286071
	26,000000	2811,709438	2801,067139	0,007660	-0,000603	0,007684	-4,500178
	27,000000	2505,938674	2519,531250	0,007700	-0,000634	0,007726	-4,703691
	28,000000	2233,420194	2229,420654	0,007750	-0,000668	0,007779	-4,922877
	29,000000	1990,537843	2000,762207	0,007794	-0,000699	0,007825	-5,121200
	30,000000	1774,068720	1772,103638	0,007848	-0,000736	0,007882	-5,358262
	31,000000	1581,140411	1582,031250	0,007900	-0,000770	0,007938	-5,565374
	32,000000	1409,192875	1411,897583	0,007955	-0,000805	0,007996	-5,780106
	33,000000	1255,944472	1253,633667	0,008017	-0,000841	0,008061	-5,991819
	34,000000	1119,361689	1118,607910	0,008078	-0,000879	0,008126	-6,208912
	35,000000	997,632155	1000,702271	0,008142	-0,000914	0,008194	-6,401565
	36,000000	889,140594	885,416687	0,008220	-0,000959	0,008275	-6,652857
	37,000000	792,447389	790,028076	0,008287	-0,000992	0,008346	-6,824823
	38,000000	706,269479	708,575562	0,008361	-0,001023	0,008424	-6,975670
	39,000000	629,463335	628,810974	0,008444	-0,001061	0,008510	-7,158737
	40,000000	561,009788	560,461975	0,008530	-0,001092	0,008600	-7,297348
	41,000000	500,000500	502,232147	0,008616	-0,001125	0,008689	-7,437607
	42,000000	445,625915	444,078949	0,008710	-0,001156	0,008787	-7,562240
	43,000000	397,164515	395,331329	0,008802	-0,001191	0,008883	-7,706032
	44,000000	353,973246	352,822571	0,008898	-0,001215	0,008981	-7,776449
	45,000000	315,478988	315,504822	0,008996	-0,001239	0,009081	-7,842054
	46,000000	281,170944	282,379517	0,009089	-0,001263	0,009176	-7,909554
	47,000000	250,593867	249,335114	0,009200	-0,001292	0,009290	-7,992740
	48,000000	223,342019	223,214279	0,009304	-0,001307	0,009396	-7,995159
	49,000000	199,053784	198,622879	0,009419	-0,001323	0,009512	-7,993010
	50,000000	177,406872	177,556824	0,009526	-0,001334	0,009619	-7,973190
	51,000000	158,114041	158,005615	0,009638	-0,001344	0,009731	-7,939470
	52,000000	140,919287	140,625000	0,009757	-0,001352	0,009851	-7,891563
	53,000000	125,594447	125,558037	0,009874	-0,001351	0,009966	-7,791884
	54,000000	111,936169	111,607140	0,009993	-0,001344	0,010083	-7,660322
	55,000000	99,763216	99,734039	0,010111	-0,001333	0,010198	-7,509101
	56,000000	88,914059	89,285713	0,010211	-0,001330	0,010297	-7,420215
	57,000000	79,244739	79,449150	0,010351	-0,001321	0,010435	-7,270431
	58,000000	70,626948	70,488724	0,010462	-0,001280	0,010540	-6,976202
	59,000000	62,946334	62,919464	0,010550	-0,001232	0,010621	-6,661640
	60,000000	56,100979	55,803570	0,010733	-0,001223	0,010803	-6,498393
	61,000000	50,000050	49,867020	0,010691	-0,001196	0,010758	-6,383662
	62,000000	44,562591	44,642857	0,010871	-0,001076	0,010924	-5,653203
	63,000000	39,716451	39,724575	0,010908	-0,001118	0,010966	-5,850873
	64,000000	35,397325	35,511364	0,011013	-0,001031	0,011061	-5,346035
	65,000000	31,547899	31,459732	0,011054	-0,001051	0,011104	-5,432312
	66,000000	28,117094	28,237951	0,011201	-0,000933	0,011239	-4,762476
	67,000000	25,059387	24,933510	0,011247	-0,000844	0,011278	-4,293267
	68,000000	22,334202	22,321428	0,011313	-0,000921	0,011351	-4,656012
	69,000000	19,905378	19,862288	0,011248	-0,000902	0,011284	-4,586171
	70,000000	17,740687	17,755682	0,011358	-0,000878	0,011392	-4,419938
	71,000000	15,811404	15,782828	0,011452	-0,000862	0,011484	-4,303259
	72,000000	14,091929	14,118976	0,011501	-0,000919	0,011538	-4,569515
	73,000000	12,559445	12,600806	0,011591	-0,000903	0,011626	-4,454855
	74,000000	11,193617	11,160714	0,011611	-0,000855	0,011643	-4,212547
	75,000000	9,976322	9,973404	0,011618	-0,000952	0,011657	-4,683150
	76,000000	8,891406	8,877841	0,011739	-0,000834	0,011768	-4,065534
	77,000000	7,924474	7,878151	0,011785	-0,000717	0,011807	-3,482335
	78,000000	7,062695	7,059488	0,011953	-0,000749	0,011977	-3,585638
	79,000000	6,294633	6,275100	0,011988	-0,000700	0,012009	-3,342026
	80,000000	5,610098	5,580357	0,012030	-0,000740	0,012052	-3,518651
	81,000000	5,000005	5,013369	0,012095	-0,000684	0,012114	-3,238849
	82,000000	4,456259	4,451567	0,012141	-0,000650	0,012158	-3,066210
	83,000000	3,971645	3,985969	0,012205	-0,000557	0,012218	-2,611546
	84,000000	3,539732	3,529744	0,012250	-0,000535	0,012262	-2,499465
	85,000000	3,154790	3,137550	0,012295	-0,000471	0,012304	-2,195298
	86,000000	2,811709	2,823795	0,012331	-0,000383	0,012337	-1,778058
	87,000000	2,505939	2,516103	0,012376	-0,000331	0,012380	-1,533818
	88,000000	2,233420	2,225784	0,012376	-0,000295	0,012380	-1,367674
	89,000000	1,990538	1,995530	0,012406	-0,000260	0,012408	-1,202362
	90,000000	1,774069	1,775568	0,012432	-0,000159	0,012433	-0,733558
	91,000000	1,581140	1,583615	0,012408	-0,000129	0,012408	-0,596867
	92,000000	1,409193	1,411472	0,012448	-5,158371E-5	0,012448	-0,237437
	93,000000	1,255944	1,258052	0,012401	9,618088E-6	0,012401	0,044437
	94,000000	1,119362	1,112892	0,012423	8,039104E-5	0,012423	0,370759
	95,000000	0,997632	0,997765	0,012385	0,000105	0,012385	0,484385
	96,000000	0,889141	0,890313	0,012378	0,000140	0,012379	0,648541
	97,000000	0,792447	0,792745	0,012341	0,000234	0,012344	1,086875
	98,000000	0,706269	0,705736	0,012271	0,000225	0,012273	1,050119
	99,000000	0,629463	0,630040	0,012232	0,000273	0,012235	1,280516
	100,000000	0,561010	0,563401	0,012214	0,000309	0,012218	1,450489
	101,000000	0,500001	0,500801	0,012140	0,000318	0,012144	1,502516
	102,000000	0,445626	0,447281	0,012081	0,000379	0,012087	1,795329
	103,000000	0,397165	0,398597	0,012004	0,000361	0,012010	1,724655
	104,000000	0,353973	0,355114	0,011988	0,000393	0,011994	1,876823
	105,000000	0,315479	0,316723	0,011901	0,000396	0,011907	1,905414
	106,000000	0,281171	0,281701	0,011877	0,000413	0,011885	1,993425
	107,000000	0,250594	0,251475	0,011828	0,000416	0,011835	2,016346
	108,000000	0,223342	0,223640	0,011751	0,000430	0,011758	2,095656
	109,000000	0,199054	0,199298	0,011663	0,000420	0,011671	2,063997
	110,000000	0,177407	0,177557	0,011615	0,000449	0,011624	2,214871
	111,000000	0,158114	0,158361	0,011571	0,000442	0,011580	2,188470
	112,000000	0,140919	0,141190	0,011509	0,000459	0,011518	2,282725
	113,000000	0,125594	0,125738	0,011443	0,000468	0,011452	2,344511
	114,000000	0,111936	0,112034	0,011387	0,000449	0,011396	2,255867

File: maxcoat_ss_coating_#01_EIS_1.1_25A_1,25A_EIS_22-08-03_1202_001.txt
LabVIEW Measurement
Writer_Version	2
Reader_Version	2
Separator	Tab
Decimal_Separator	,
Multi_Headings	Yes
X_Columns	No
Time_Pref	Absolute
Operator	Versuchsstand
Date	2022/08/03
Time	12:02:24,955287933349609375
***End_of_Header***

Channels	7
Samples	114	114	114	114	114	114	114
Date	2022/08/03	2022/08/03	2022/08/03	2022/08/03	2022/08/03	2022/08/03	2022/08/03
Time	12:02:24,955287933349609375	12:02:24,955287933349609375	12:02:24,955287933349609375	12:02:24,955287933349609375	12:02:24,955287933349609375	12:02:24,955287933349609375	12:02:24,955287933349609375
X_Dimension	Time	Time	Time	Time	Time	Time	Time
X0	0,0000000000000000E+0	0,0000000000000000E+0	0,0000000000000000E+0	0,0000000000000000E+0	0,0000000000000000E+0	0,0000000000000000E+0	0,0000000000000000E+0
Delta_X	1,000000	1,000000	1,000000	1,000000	1,000000	1,000000	1,000000
***End_of_Header***
X_Value	number [-]	freq [Hz]	freq meas [Hz]	real [ohm]	imag [ohm]	impedance [ohm]	phase [deg]	Comment
	1,000000	50000,050000	50097,656250	0,007606	0,001259	0,007710	9,399110
	2,000000	44562,591469	44589,843750	0,007584	0,001096	0,007663	8,225552
	3,000000	39716,451453	39785,156250	0,007555	0,000943	0,007614	7,111289
	4,000000	35397,324616	35449,218750	0,007527	0,000773	0,007567	5,866153
	5,000000	31547,898772	31582,031250	0,007526	0,000588	0,007549	4,468447
	6,000000	28117,094377	28183,593750	0,007528	0,000406	0,007539	3,084279
	7,000000	25059,386741	25136,718750	0,007582	0,000238	0,007586	1,796316
	8,000000	22334,201942	22441,406250	0,007651	9,835238E-5	0,007651	0,736523
	9,000000	19905,378433	19980,468750	0,007756	2,630927E-5	0,007756	0,194355
	10,000000	17740,687202	17753,906250	0,007809	-4,785662E-5	0,007809	-0,351121
	11,000000	15811,404112	15878,906250	0,007870	-0,000101	0,007870	-0,735214
	12,000000	14091,928748	14121,093750	0,007918	-0,000145	0,007919	-1,048031
	13,000000	12559,444717	12597,656250	0,007967	-0,000188	0,007970	-1,352693
	14,000000	11193,616886	11168,981445	0,008008	-0,000224	0,008011	-1,599489
	15,000000	9976,321551	10019,531250	0,008042	-0,000259	0,008046	-1,844765
	16,000000	8891,405942	8854,166992	0,008078	-0,000293	0,008084	-2,074521
	17,000000	7924,473887	7928,240723	0,008111	-0,000325	0,008117	-2,293187
	18,000000	7062,694786	7089,843750	0,008143	-0,000355	0,008151	-2,497872
	19,000000	6294,633354	6307,870605	0,008173	-0,000387	0,008182	-2,708237
	20,000000	5610,097882	5613,425781	0,008210	-0,000417	0,008221	-2,907628
	21,000000	5000,005000	4973,323242	0,008248	-0,000447	0,008260	-3,101585
	22,000000	4456,259147	4456,018555	0,008279	-0,000477	0,008292	-3,295929
	23,000000	3971,645145	3993,055664	0,008312	-0,000505	0,008327	-3,475675
	24,000000	3539,732462	3530,092529	0,008349	-0,000539	0,008367	-3,696574
	25,000000	3154,789877	3144,054932	0,008385	-0,000572	0,008405	-3,899645
	26,000000	2811,709438	2801,067139	0,008425	-0,000608	0,008447	-4,125577
	27,000000	2505,938674	2519,531250	0,008462	-0,000639	0,008486	-4,316567
	28,000000	2233,420194	2229,420654	0,008506	-0,000677	0,008533	-4,549566
	29,000000	1990,537843	2000,762207	0,008547	-0,000712	0,008576	-4,762669
	30,000000	1774,068720	1772,103638	0,008596	-0,000754	0,008629	-5,012924
	31,000000	1581,140411	1582,031250	0,008645	-0,000794	0,008681	-5,247153
	32,000000	1409,192875	1411,897583	0,008696	-0,000837	0,008736	-5,500865
	33,000000	1255,944472	1253,633667	0,008753	-0,000883	0,008797	-5,757863
	34,000000	1119,361689	1118,607910	0,008813	-0,000928	0,008862	-6,011027
	35,000000	997,632155	1000,702271	0,008872	-0,000973	0,008925	-6,258225
	36,000000	889,140594	885,416687	0,008944	-0,001024	0,009002	-6,530826
	37,000000	792,447389	790,028076	0,009015	-0,001075	0,009079	-6,799382
	38,000000	706,269479	708,575562	0,009093	-0,001120	0,009162	-7,022162
	39,000000	629,463335	628,810974	0,009175	-0,001167	0,009249	-7,246225
	40,000000	561,009788	560,461975	0,009264	-0,001216	0,009344	-7,475149
	41,000000	500,000500	502,232147	0,009347	-0,001273	0,009434	-7,756383
	42,000000	445,625915	444,078949	0,009453	-0,001326	0,009546	-7,982177
	43,000000	397,164515	395,331329	0,009555	-0,001374	0,009654	-8,182472
	44,000000	353,973246	352,822571	0,009662	-0,001428	0,009767	-8,407248
	45,000000	315,478988	315,504822	0,009770	-0,001471	0,009880	-8,560037
	46,000000	281,170944	282,379517	0,009883	-0,001519	0,009999	-8,737241
	47,000000	250,593867	249,335114	0,010023	-0,001563	0,010144	-8,862971
	48,000000	223,342019	223,214279	0,010143	-0,001604	0,010269	-8,987411
	49,000000	199,053784	198,622879	0,010275	-0,001642	0,010406	-9,081372
	50,000000	177,406872	177,556824	0,010413	-0,001678	0,010547	-9,152205
	51,000000	158,114041	158,005615	0,010558	-0,001696	0,010693	-9,128421
	52,000000	140,919287	140,625000	0,010713	-0,001735	0,010853	-9,200744
	53,000000	125,594447	125,558037	0,010862	-0,001752	0,011002	-9,164952
	54,000000	111,936169	111,607140	0,011023	-0,001757	0,011162	-9,056945
	55,000000	99,763216	99,734039	0,011181	-0,001759	0,011318	-8,943044
	56,000000	88,914059	89,285713	0,011343	-0,001747	0,011476	-8,757052
	57,000000	79,244739	79,449150	0,011482	-0,001739	0,011613	-8,614346
	58,000000	70,626948	70,488724	0,011696	-0,001707	0,011820	-8,302369
	59,000000	62,946334	62,919464	0,011736	-0,001676	0,011855	-8,126394
	60,000000	56,100979	55,803570	0,011994	-0,001667	0,012109	-7,912017
	61,000000	50,000050	49,867020	0,012122	-0,001564	0,012223	-7,349444
	62,000000	44,562591	44,642857	0,012196	-0,001576	0,012297	-7,361416
	63,000000	39,716451	39,724575	0,012318	-0,001466	0,012405	-6,787071
	64,000000	35,397325	35,511364	0,012390	-0,001429	0,012472	-6,580970
	65,000000	31,547899	31,459732	0,012487	-0,001382	0,012563	-6,315310
	66,000000	28,117094	28,237951	0,012547	-0,001305	0,012615	-5,936341
	67,000000	25,059387	24,933510	0,012737	-0,001287	0,012802	-5,768584
	68,000000	22,334202	22,321428	0,012751	-0,001227	0,012810	-5,497108
	69,000000	19,905378	19,862288	0,012810	-0,001205	0,012866	-5,373802
	70,000000	17,740687	17,755682	0,012967	-0,001145	0,013017	-5,046948
	71,000000	15,811404	15,782828	0,012945	-0,001163	0,012998	-5,135163
	72,000000	14,091929	14,118976	0,013064	-0,001111	0,013111	-4,862989
	73,000000	12,559445	12,600806	0,013116	-0,001177	0,013169	-5,126242
	74,000000	11,193617	11,160714	0,013211	-0,001082	0,013256	-4,682025
	75,000000	9,976322	9,973404	0,013259	-0,001113	0,013306	-4,798120
	76,000000	8,891406	8,877841	0,013440	-0,001011	0,013478	-4,302958
	77,000000	7,924474	7,878151	0,013489	-0,001009	0,013527	-4,276888
	78,000000	7,062695	7,059488	0,013621	-0,001031	0,013660	-4,327937
	79,000000	6,294633	6,275100	0,013689	-0,000964	0,013723	-4,026397
	80,000000	5,610098	5,580357	0,013702	-0,000896	0,013732	-3,741119
	81,000000	5,000005	5,013369	0,013778	-0,000851	0,013805	-3,535299
	82,000000	4,456259	4,451567	0,013935	-0,000769	0,013956	-3,156830
	83,000000	3,971645	3,985969	0,013869	-0,000696	0,013886	-2,871675
	84,000000	3,539732	3,529744	0,013988	-0,000601	0,014001	-2,461168
	85,000000	3,154790	3,137550	0,014046	-0,000502	0,014055	-2,044803
	86,000000	2,811709	2,823795	0,014077	-0,000435	0,014084	-1,769432
	87,000000	2,505939	2,516103	0,014082	-0,000389	0,014088	-1,581789
	88,000000	2,233420	2,225784	0,014081	-0,000337	0,014086	-1,371402
	89,000000	1,990538	1,995530	0,014114	-0,000258	0,014116	-1,049066
	90,000000	1,774069	1,775568	0,014064	-0,000170	0,014065	-0,694143
	91,000000	1,581140	1,583615	0,014132	-0,000123	0,014132	-0,499813
	92,000000	1,409193	1,411472	0,014129	-8,816431E-5	0,014130	-0,357511
	93,000000	1,255944	1,258052	0,014076	6,492629E-6	0,014076	0,026428
	94,000000	1,119362	1,112892	0,013993	1,250040E-6	0,013993	0,005118
	95,000000	0,997632	0,997765	0,013979	0,000104	0,013980	0,425791
	96,000000	0,889141	0,890313	0,013984	0,000134	0,013985	0,549427
	97,000000	0,792447	0,792745	0,013957	0,000207	0,013959	0,847700
	98,000000	0,706269	0,705736	0,013876	0,000210	0,013877	0,868666
	99,000000	0,629463	0,630040	0,013842	0,000255	0,013844	1,055085
	100,000000	0,561010	0,563401	0,013798	0,000295	0,013801	1,226110
	101,000000	0,500001	0,500801	0,013739	0,000323	0,013743	1,348254
	102,000000	0,445626	0,447281	0,013738	0,000341	0,013742	1,422512
	103,000000	0,397165	0,398597	0,013638	0,000374	0,013643	1,572606
	104,000000	0,353973	0,355114	0,013579	0,000426	0,013586	1,795669
	105,000000	0,315479	0,316723	0,013541	0,000399	0,013547	1,687461
	106,000000	0,281171	0,281701	0,013459	0,000428	0,013466	1,823365
	107,000000	0,250594	0,251475	0,013380	0,000437	0,013387	1,870358
	108,000000	0,223342	0,223640	0,013334	0,000461	0,013342	1,979862
	109,000000	0,199054	0,199298	0,013260	0,000477	0,013268	2,062092
	110,000000	0,177407	0,177557	0,013213	0,000471	0,013222	2,043684
	111,000000	0,158114	0,158361	0,013122	0,000477	0,013131	2,081240
	112,000000	0,140919	0,141190	0,013057	0,000493	0,013067	2,164458
	113,000000	0,125594	0,125738	0,012975	0,000508	0,012985	2,240401
	114,000000	0,111936	0,112034	0,012889	0,000491	0,012899	2,180510