Folder: dashboard_maxcoat/data/gamry (part 3)

File: maxcoat_ss_coating_#01_EIS_1.1_25A_1,25A_EIS_22-08-07_0535_001.txt
LabVIEW Measurement
Writer_Version	2
Reader_Version	2
Separator	Tab
Decimal_Separator	,
Multi_Headings	Yes
X_Columns	No
Time_Pref	Absolute
Operator	Versuchsstand
Date	2022/08/03
Time	12:02:24,955287933349609375
***End_of_Header***

Channels	7
Samples	114	114	114	114	114	114	114
Date	2022/08/07	2022/08/07	2022/08/07	2022/08/07	2022/08/07	2022/08/07	2022/08/07
Time	05:35:27,475513458251953125	05:35:27,475513458251953125	05:35:27,475513458251953125	05:35:27,475513458251953125	05:35:27,475513458251953125	05:35:27,475513458251953125	05:35:27,475513458251953125
X_Dimension	Time	Time	Time	Time	Time	Time	Time
X0	0,0000000000000000E+0	0,0000000000000000E+0	0,0000000000000000E+0	0,0000000000000000E+0	0,0000000000000000E+0	0,0000000000000000E+0	0,0000000000000000E+0
Delta_X	1,000000	1,000000	1,000000	1,000000	1,000000	1,000000	1,000000
***End_of_Header***
X_Value	number [-]	freq [Hz]	freq meas [Hz]	real [ohm]	imag [ohm]	impedance [ohm]	phase [deg]	Comment
	1,000000	50000,050000	50097,656250	0,007706	0,001277	0,007811	9,410186
	2,000000	44562,591469	44589,843750	0,007683	0,001118	0,007764	8,276738
	3,000000	39716,451453	39785,156250	0,007652	0,000963	0,007712	7,176618
	4,000000	35397,324616	35449,218750	0,007618	0,000795	0,007659	5,955873
	5,000000	31547,898772	31582,031250	0,007599	0,000611	0,007624	4,600623
	6,000000	28117,094377	28183,593750	0,007614	0,000427	0,007626	3,210455
	7,000000	25059,386741	25136,718750	0,007669	0,000257	0,007674	1,918477
	8,000000	22334,201942	22441,406250	0,007736	0,000116	0,007736	0,859401
	9,000000	19905,378433	19980,468750	0,007842	4,210266E-5	0,007843	0,307593
	10,000000	17740,687202	17753,906250	0,007897	-3,225662E-5	0,007897	-0,234040
	11,000000	15811,404112	15878,906250	0,007961	-8,282885E-5	0,007962	-0,596080
	12,000000	14091,928748	14121,093750	0,008013	-0,000139	0,008015	-0,995738
	13,000000	12559,444717	12597,656250	0,008055	-0,000166	0,008057	-1,182334
	14,000000	11193,616886	11168,981445	0,008095	-0,000203	0,008098	-1,435238
	15,000000	9976,321551	10019,531250	0,008124	-0,000228	0,008127	-1,605506
	16,000000	8891,405942	8854,166992	0,008162	-0,000273	0,008167	-1,916423
	17,000000	7924,473887	7928,240723	0,008193	-0,000299	0,008198	-2,091284
	18,000000	7062,694786	7089,843750	0,008222	-0,000326	0,008229	-2,272356
	19,000000	6294,633354	6307,870605	0,008254	-0,000355	0,008262	-2,465709
	20,000000	5610,097882	5613,425781	0,008284	-0,000381	0,008292	-2,634060
	21,000000	5000,005000	4973,323242	0,008321	-0,000412	0,008331	-2,836825
	22,000000	4456,259147	4456,018555	0,008350	-0,000442	0,008362	-3,031765
	23,000000	3971,645145	3993,055664	0,008379	-0,000466	0,008392	-3,186729
	24,000000	3539,732462	3530,092529	0,008411	-0,000501	0,008426	-3,407145
	25,000000	3154,789877	3144,054932	0,008444	-0,000533	0,008461	-3,611330
	26,000000	2811,709438	2801,067139	0,008478	-0,000567	0,008497	-3,827442
	27,000000	2505,938674	2519,531250	0,008509	-0,000598	0,008530	-4,016928
	28,000000	2233,420194	2229,420654	0,008548	-0,000637	0,008572	-4,258664
	29,000000	1990,537843	2000,762207	0,008588	-0,000674	0,008614	-4,490665
	30,000000	1774,068720	1772,103638	0,008630	-0,000715	0,008660	-4,736657
	31,000000	1581,140411	1582,031250	0,008675	-0,000756	0,008708	-4,982940
	32,000000	1409,192875	1411,897583	0,008720	-0,000800	0,008756	-5,243541
	33,000000	1255,944472	1253,633667	0,008773	-0,000851	0,008814	-5,541335
	34,000000	1119,361689	1118,607910	0,008823	-0,000900	0,008869	-5,824235
	35,000000	997,632155	1000,702271	0,008878	-0,000952	0,008929	-6,122594
	36,000000	889,140594	885,416687	0,008943	-0,001010	0,009000	-6,442694
	37,000000	792,447389	790,028076	0,009008	-0,001064	0,009071	-6,734321
	38,000000	706,269479	708,575562	0,009075	-0,001120	0,009143	-7,033802
	39,000000	629,463335	628,810974	0,009161	-0,001181	0,009236	-7,345810
	40,000000	561,009788	560,461975	0,009240	-0,001247	0,009324	-7,685657
	41,000000	500,000500	502,232147	0,009325	-0,001315	0,009417	-8,027894
	42,000000	445,625915	444,078949	0,009427	-0,001386	0,009528	-8,362222
	43,000000	397,164515	395,331329	0,009532	-0,001451	0,009642	-8,654675
	44,000000	353,973246	352,822571	0,009637	-0,001520	0,009756	-8,963338
	45,000000	315,478988	315,504822	0,009749	-0,001584	0,009877	-9,231683
	46,000000	281,170944	282,379517	0,009872	-0,001654	0,010009	-9,510165
	47,000000	250,593867	249,335114	0,010016	-0,001720	0,010163	-9,745855
	48,000000	223,342019	223,214279	0,010155	-0,001787	0,010311	-9,981989
	49,000000	199,053784	198,622879	0,010313	-0,001844	0,010476	-10,138346
	50,000000	177,406872	177,556824	0,010467	-0,001895	0,010637	-10,262946
	51,000000	158,114041	158,005615	0,010636	-0,001946	0,010813	-10,368564
	52,000000	140,919287	140,625000	0,010819	-0,001984	0,010999	-10,392348
	53,000000	125,594447	125,558037	0,011000	-0,002009	0,011182	-10,351406
	54,000000	111,936169	111,607140	0,011183	-0,002032	0,011366	-10,300424
	55,000000	99,763216	99,734039	0,011384	-0,002048	0,011566	-10,199695
	56,000000	88,914059	89,285713	0,011550	-0,002047	0,011730	-10,052039
	57,000000	79,244739	79,449150	0,011726	-0,002010	0,011897	-9,728614
	58,000000	70,626948	70,488724	0,011971	-0,001981	0,012134	-9,395082
	59,000000	62,946334	62,919464	0,012101	-0,001924	0,012253	-9,034140
	60,000000	56,100979	55,803570	0,012357	-0,001874	0,012499	-8,623226
	61,000000	50,000050	49,867020	0,012382	-0,001896	0,012527	-8,703971
	62,000000	44,562591	44,642857	0,012565	-0,001828	0,012697	-8,277512
	63,000000	39,716451	39,724575	0,012732	-0,001720	0,012847	-7,695905
	64,000000	35,397325	35,511364	0,012866	-0,001640	0,012970	-7,263473
	65,000000	31,547899	31,459732	0,012962	-0,001603	0,013060	-7,047974
	66,000000	28,117094	28,237951	0,013047	-0,001519	0,013135	-6,642633
	67,000000	25,059387	24,933510	0,013172	-0,001454	0,013253	-6,300620
	68,000000	22,334202	22,321428	0,013226	-0,001449	0,013306	-6,251614
	69,000000	19,905378	19,862288	0,013278	-0,001424	0,013355	-6,122732
	70,000000	17,740687	17,755682	0,013416	-0,001325	0,013481	-5,639657
	71,000000	15,811404	15,782828	0,013449	-0,001335	0,013515	-5,670623
	72,000000	14,091929	14,118976	0,013588	-0,001279	0,013648	-5,376654
	73,000000	12,559445	12,600806	0,013662	-0,001286	0,013722	-5,375561
	74,000000	11,193617	11,160714	0,013718	-0,001270	0,013777	-5,290747
	75,000000	9,976322	9,973404	0,013838	-0,001223	0,013892	-5,049638
	76,000000	8,891406	8,877841	0,014038	-0,001209	0,014090	-4,920736
	77,000000	7,924474	7,878151	0,014060	-0,001168	0,014109	-4,750510
	78,000000	7,062695	7,059488	0,014162	-0,001172	0,014211	-4,732558
	79,000000	6,294633	6,275100	0,014287	-0,001056	0,014326	-4,225322
	80,000000	5,610098	5,580357	0,014365	-0,000973	0,014398	-3,874398
	81,000000	5,000005	5,013369	0,014446	-0,000923	0,014475	-3,657377
	82,000000	4,456259	4,451567	0,014536	-0,000844	0,014560	-3,324293
	83,000000	3,971645	3,985969	0,014586	-0,000796	0,014607	-3,125507
	84,000000	3,539732	3,529744	0,014614	-0,000684	0,014630	-2,680703
	85,000000	3,154790	3,137550	0,014686	-0,000606	0,014698	-2,362903
	86,000000	2,811709	2,823795	0,014689	-0,000523	0,014699	-2,040887
	87,000000	2,505939	2,516103	0,014745	-0,000498	0,014753	-1,934034
	88,000000	2,233420	2,225784	0,014750	-0,000318	0,014754	-1,236810
	89,000000	1,990538	1,995530	0,014761	-0,000293	0,014764	-1,136783
	90,000000	1,774069	1,775568	0,014754	-0,000222	0,014756	-0,862847
	91,000000	1,581140	1,583615	0,014736	-0,000139	0,014737	-0,540442
	92,000000	1,409193	1,411472	0,014726	-0,000118	0,014726	-0,460065
	93,000000	1,255944	1,258052	0,014693	-5,003763E-5	0,014693	-0,195120
	94,000000	1,119362	1,112892	0,014693	2,751818E-5	0,014693	0,107305
	95,000000	0,997632	0,997765	0,014648	3,342891E-5	0,014648	0,130756
	96,000000	0,889141	0,890313	0,014605	9,841930E-5	0,014605	0,386094
	97,000000	0,792447	0,792745	0,014591	0,000116	0,014591	0,455055
	98,000000	0,706269	0,705736	0,014543	0,000185	0,014545	0,730640
	99,000000	0,629463	0,630040	0,014492	0,000222	0,014494	0,875705
	100,000000	0,561010	0,563401	0,014432	0,000234	0,014434	0,928916
	101,000000	0,500001	0,500801	0,014391	0,000279	0,014394	1,109055
	102,000000	0,445626	0,447281	0,014345	0,000297	0,014349	1,185362
	103,000000	0,397165	0,398597	0,014276	0,000307	0,014279	1,232518
	104,000000	0,353973	0,355114	0,014216	0,000321	0,014220	1,295031
	105,000000	0,315479	0,316723	0,014160	0,000365	0,014165	1,475711
	106,000000	0,281171	0,281701	0,014103	0,000387	0,014108	1,571411
	107,000000	0,250594	0,251475	0,014053	0,000389	0,014058	1,585413
	108,000000	0,223342	0,223640	0,013975	0,000416	0,013981	1,704809
	109,000000	0,199054	0,199298	0,013914	0,000416	0,013920	1,713092
	110,000000	0,177407	0,177557	0,013845	0,000440	0,013852	1,818905
	111,000000	0,158114	0,158361	0,013794	0,000471	0,013802	1,955507
	112,000000	0,140919	0,141190	0,013722	0,000469	0,013730	1,956909
	113,000000	0,125594	0,125738	0,013743	0,000502	0,013752	2,093901
	114,000000	0,111936	0,112034	0,013624	0,000505	0,013633	2,123876

File: maxcoat_ss_coating_#01_EIS_1.1_25A_1,25A_EIS_22-08-08_0839_001.txt
LabVIEW Measurement
Writer_Version	2
Reader_Version	2
Separator	Tab
Decimal_Separator	,
Multi_Headings	Yes
X_Columns	No
Time_Pref	Absolute
Operator	Versuchsstand
Date	2022/08/03
Time	12:02:24,955287933349609375
***End_of_Header***

Channels	7
Samples	114	114	114	114	114	114	114
Date	2022/08/08	2022/08/08	2022/08/08	2022/08/08	2022/08/08	2022/08/08	2022/08/08
Time	08:39:18,653598785400390625	08:39:18,653598785400390625	08:39:18,653598785400390625	08:39:18,653598785400390625	08:39:18,653598785400390625	08:39:18,653598785400390625	08:39:18,653598785400390625
X_Dimension	Time	Time	Time	Time	Time	Time	Time
X0	0,0000000000000000E+0	0,0000000000000000E+0	0,0000000000000000E+0	0,0000000000000000E+0	0,0000000000000000E+0	0,0000000000000000E+0	0,0000000000000000E+0
Delta_X	1,000000	1,000000	1,000000	1,000000	1,000000	1,000000	1,000000
***End_of_Header***
X_Value	number [-]	freq [Hz]	freq meas [Hz]	real [ohm]	imag [ohm]	impedance [ohm]	phase [deg]	Comment
	1,000000	50000,050000	50097,656250	0,007741	0,001295	0,007849	9,497602
	2,000000	44562,591469	44589,843750	0,007722	0,001138	0,007805	8,382896
	3,000000	39716,451453	39785,156250	0,007685	0,000981	0,007747	7,276646
	4,000000	35397,324616	35449,218750	0,007654	0,000814	0,007697	6,072874
	5,000000	31547,898772	31582,031250	0,007632	0,000633	0,007658	4,741198
	6,000000	28117,094377	28183,593750	0,007649	0,000443	0,007662	3,313401
	7,000000	25059,386741	25136,718750	0,007700	0,000276	0,007704	2,052409
	8,000000	22334,201942	22441,406250	0,007792	0,000161	0,007793	1,181814
	9,000000	19905,378433	19980,468750	0,007869	6,029469E-5	0,007869	0,439022
	10,000000	17740,687202	17753,906250	0,007922	-1,227637E-5	0,007922	-0,088784
	11,000000	15811,404112	15878,906250	0,007978	-5,865157E-5	0,007979	-0,421188
	12,000000	14091,928748	14121,093750	0,008037	-0,000105	0,008038	-0,751302
	13,000000	12559,444717	12597,656250	0,008075	-0,000143	0,008076	-1,017608
	14,000000	11193,616886	11168,981445	0,008115	-0,000181	0,008117	-1,274996
	15,000000	9976,321551	10019,531250	0,008148	-0,000208	0,008151	-1,464815
	16,000000	8891,405942	8854,166992	0,008176	-0,000246	0,008180	-1,722880
	17,000000	7924,473887	7928,240723	0,008207	-0,000271	0,008211	-1,893663
	18,000000	7062,694786	7089,843750	0,008243	-0,000297	0,008248	-2,063884
	19,000000	6294,633354	6307,870605	0,008265	-0,000330	0,008272	-2,289867
	20,000000	5610,097882	5613,425781	0,008299	-0,000359	0,008306	-2,476484
	21,000000	5000,005000	4973,323242	0,008331	-0,000387	0,008340	-2,656931
	22,000000	4456,259147	4456,018555	0,008360	-0,000412	0,008370	-2,822474
	23,000000	3971,645145	3993,055664	0,008386	-0,000440	0,008398	-3,000561
	24,000000	3539,732462	3530,092529	0,008417	-0,000470	0,008430	-3,198599
	25,000000	3154,789877	3144,054932	0,008448	-0,000502	0,008463	-3,402716
	26,000000	2811,709438	2801,067139	0,008479	-0,000534	0,008496	-3,605889
	27,000000	2505,938674	2519,531250	0,008509	-0,000566	0,008528	-3,802614
	28,000000	2233,420194	2229,420654	0,008546	-0,000603	0,008567	-4,036063
	29,000000	1990,537843	2000,762207	0,008585	-0,000634	0,008608	-4,226918
	30,000000	1774,068720	1772,103638	0,008621	-0,000680	0,008648	-4,509296
	31,000000	1581,140411	1582,031250	0,008660	-0,000721	0,008690	-4,756142
	32,000000	1409,192875	1411,897583	0,008704	-0,000766	0,008738	-5,028908
	33,000000	1255,944472	1253,633667	0,008750	-0,000813	0,008787	-5,306424
	34,000000	1119,361689	1118,607910	0,008798	-0,000864	0,008841	-5,608163
	35,000000	997,632155	1000,702271	0,008851	-0,000917	0,008898	-5,914254
	36,000000	889,140594	885,416687	0,008908	-0,000977	0,008962	-6,260617
	37,000000	792,447389	790,028076	0,008973	-0,001036	0,009032	-6,585270
	38,000000	706,269479	708,575562	0,009038	-0,001091	0,009104	-6,884359
	39,000000	629,463335	628,810974	0,009112	-0,001159	0,009186	-7,245952
	40,000000	561,009788	560,461975	0,009193	-0,001226	0,009274	-7,598342
	41,000000	500,000500	502,232147	0,009272	-0,001301	0,009363	-7,987844
	42,000000	445,625915	444,078949	0,009366	-0,001379	0,009467	-8,375094
	43,000000	397,164515	395,331329	0,009471	-0,001454	0,009582	-8,729737
	44,000000	353,973246	352,822571	0,009579	-0,001534	0,009701	-9,095744
	45,000000	315,478988	315,504822	0,009693	-0,001607	0,009826	-9,410253
	46,000000	281,170944	282,379517	0,009812	-0,001681	0,009955	-9,720540
	47,000000	250,593867	249,335114	0,009966	-0,001773	0,010123	-10,088290
	48,000000	223,342019	223,214279	0,010107	-0,001837	0,010273	-10,299946
	49,000000	199,053784	198,622879	0,010260	-0,001914	0,010437	-10,564296
	50,000000	177,406872	177,556824	0,010430	-0,001971	0,010614	-10,702864
	51,000000	158,114041	158,005615	0,010615	-0,002028	0,010807	-10,818883
	52,000000	140,919287	140,625000	0,010790	-0,002081	0,010989	-10,917576
	53,000000	125,594447	125,558037	0,010989	-0,002117	0,011191	-10,902281
	54,000000	111,936169	111,607140	0,011193	-0,002128	0,011394	-10,763422
	55,000000	99,763216	99,734039	0,011405	-0,002138	0,011604	-10,619829
	56,000000	88,914059	89,285713	0,011558	-0,002164	0,011758	-10,604371
	57,000000	79,244739	79,449150	0,011833	-0,002142	0,012026	-10,259896
	58,000000	70,626948	70,488724	0,012005	-0,002110	0,012189	-9,969902
	59,000000	62,946334	62,919464	0,012202	-0,002092	0,012380	-9,726267
	60,000000	56,100979	55,803570	0,012378	-0,001942	0,012529	-8,918111
	61,000000	50,000050	49,867020	0,012582	-0,002000	0,012740	-9,029911
	62,000000	44,562591	44,642857	0,012735	-0,001925	0,012880	-8,595035
	63,000000	39,716451	39,724575	0,012854	-0,001806	0,012980	-7,998562
	64,000000	35,397325	35,511364	0,012973	-0,001760	0,013091	-7,724244
	65,000000	31,547899	31,459732	0,013173	-0,001715	0,013284	-7,419074
	66,000000	28,117094	28,237951	0,013230	-0,001624	0,013330	-6,998014
	67,000000	25,059387	24,933510	0,013327	-0,001536	0,013415	-6,574894
	68,000000	22,334202	22,321428	0,013475	-0,001481	0,013557	-6,269989
	69,000000	19,905378	19,862288	0,013488	-0,001439	0,013564	-6,087718
	70,000000	17,740687	17,755682	0,013620	-0,001309	0,013683	-5,489913
	71,000000	15,811404	15,782828	0,013682	-0,001356	0,013749	-5,658155
	72,000000	14,091929	14,118976	0,013790	-0,001294	0,013851	-5,362322
	73,000000	12,559445	12,600806	0,013884	-0,001383	0,013952	-5,687139
	74,000000	11,193617	11,160714	0,013952	-0,001294	0,014011	-5,299169
	75,000000	9,976322	9,973404	0,014107	-0,001313	0,014168	-5,315915
	76,000000	8,891406	8,877841	0,014210	-0,001284	0,014268	-5,161977
	77,000000	7,924474	7,878151	0,014240	-0,001240	0,014294	-4,978293
	78,000000	7,062695	7,059488	0,014392	-0,001116	0,014435	-4,435034
	79,000000	6,294633	6,275100	0,014471	-0,001152	0,014516	-4,549773
	80,000000	5,610098	5,580357	0,014524	-0,000965	0,014556	-3,801185
	81,000000	5,000005	5,013369	0,014671	-0,000998	0,014705	-3,892838
	82,000000	4,456259	4,451567	0,014784	-0,000854	0,014808	-3,307826
	83,000000	3,971645	3,985969	0,014829	-0,000776	0,014850	-2,995641
	84,000000	3,539732	3,529744	0,014840	-0,000727	0,014858	-2,805125
	85,000000	3,154790	3,137550	0,014947	-0,000600	0,014959	-2,298078
	86,000000	2,811709	2,823795	0,014948	-0,000532	0,014957	-2,039573
	87,000000	2,505939	2,516103	0,014977	-0,000496	0,014985	-1,897696
	88,000000	2,233420	2,225784	0,015005	-0,000354	0,015009	-1,353048
	89,000000	1,990538	1,995530	0,014966	-0,000287	0,014969	-1,097643
	90,000000	1,774069	1,775568	0,014960	-0,000239	0,014962	-0,916958
	91,000000	1,581140	1,583615	0,014963	-0,000163	0,014964	-0,624259
	92,000000	1,409193	1,411472	0,014934	-0,000109	0,014934	-0,419271
	93,000000	1,255944	1,258052	0,014915	-3,075109E-5	0,014915	-0,118130
	94,000000	1,119362	1,112892	0,014927	-9,329701E-6	0,014927	-0,035810
	95,000000	0,997632	0,997765	0,014862	6,855775E-5	0,014862	0,264303
	96,000000	0,889141	0,890313	0,014856	9,703321E-5	0,014857	0,374217
	97,000000	0,792447	0,792745	0,014814	0,000114	0,014814	0,439774
	98,000000	0,706269	0,705736	0,014767	0,000199	0,014769	0,772163
	99,000000	0,629463	0,630040	0,014711	0,000215	0,014712	0,837372
	100,000000	0,561010	0,563401	0,014674	0,000257	0,014677	1,003524
	101,000000	0,500001	0,500801	0,014643	0,000283	0,014646	1,107207
	102,000000	0,445626	0,447281	0,014562	0,000313	0,014565	1,230931
	103,000000	0,397165	0,398597	0,014539	0,000321	0,014542	1,266740
	104,000000	0,353973	0,355114	0,014502	0,000325	0,014505	1,283253
	105,000000	0,315479	0,316723	0,014424	0,000368	0,014429	1,460044
	106,000000	0,281171	0,281701	0,014376	0,000381	0,014381	1,517518
	107,000000	0,250594	0,251475	0,014297	0,000398	0,014303	1,594191
	108,000000	0,223342	0,223640	0,014248	0,000401	0,014254	1,613562
	109,000000	0,199054	0,199298	0,014179	0,000444	0,014186	1,794326
	110,000000	0,177407	0,177557	0,014110	0,000452	0,014117	1,835115
	111,000000	0,158114	0,158361	0,014047	0,000470	0,014055	1,916393
	112,000000	0,140919	0,141190	0,013993	0,000489	0,014001	2,002219
	113,000000	0,125594	0,125738	0,013910	0,000500	0,013919	2,057130
	114,000000	0,111936	0,112034	0,013853	0,000512	0,013863	2,114745